{
    "resourceType":"Bundle",
    "type":"transaction",
    "entry":[
        {
            "request": {
              "method": "DELETE",
              "url": "Slot/slot11111111111"
            }
          },
          {
            "request": {
              "method": "DELETE",
              "url": "Slot/slot11111111112"
            }
          },
          {
            "request": {
              "method": "DELETE",
              "url": "Slot/slot11111111113"
            }
          },
        {
            "fullUrl":"urn:uuid:testOrganization",
            "resource":{
                "resourceType":"Organization",
                "name":[
                    {
                        "given":[
                            "testOrganization"
                        ]
                    }
                ]
            },
            "request":{
                "method":"POST"
            }
        },
      {
          "fullUrl":"urn:uuid:testPatient1",
          "resource":{
              "resourceType":"Patient",
              "name":[
                  {
                      "given":[
                          "testPatient1"
                      ]
                  }
              ],
              "managingOrganization":{
                "reference":"urn:uuid:testOrganization"
              }

          },
          "request":{
              "method":"POST"
          }
      },
      {
        "fullUrl":"urn:uuid:testPatient2",
        "resource":{
            "resourceType":"Patient",
            "name":[
                {
                    "given":[
                        "testPatient2"
                    ]
                }
            ],
            "managingOrganization":{
              "reference":"urn:uuid:testOrganization"
            }

        },
        "request":{
            "method":"POST"
        }
    },
      {
        "fullUrl":"urn:uuid:testPractitioner",
        "resource":{
            "resourceType":"Practitioner",
            "name":[
                {
                    "given":[
                        "testPractitioner"
                    ]
                }
            ]
          
        },
        "request":{
            "method":"POST"
        }
    },
    {
        "fullUrl":"urn:uuid:testPractitionerRole",
        "resource":{
            "resourceType":"PractitionerRole",
            "practitioner": {
                "reference": "urn:uuid:testPractitioner",
                "display": "testPractitioner"
              },
              "organization": {
                "reference": "urn:uuid:testOrganization",
                "display": "testOrganization"
              }
          
        },
        "request":{
            "method":"POST"
        }
    },
    {
        "fullUrl":"urn:uuid:testSchedule",
        "resource":{
            "resourceType":"Schedule",
            "text": {
                "status": "generated",
                "div": "<div xmlns=\"http://www.w3.org/1999/xhtml\">\n testPractioner於testOrganization開設學程 \n    </div>"
              },
            "active":true,
            "actor": {
                "reference": "urn:uuid:testPractitionerRole",
                "display": "testPractitionerRole"
              },
              "planningHorizon": {
                "start": "2021-05-24T09:00:00Z",
                "end": "2021-06-30T12:30:00Z"
              },
              "serviceCategory": [
                {
                  "coding": [
                    {
                      "code": "100000",
                      "display": "學程"
                    }
                  ]
                }
              ],
              "serviceType": [
                {
                  "coding": [
                    {
                      "code": "100000100",
                      "display": "教育學程"
                    }
                  ]
                }
              ],
              "specialty": [
                {
                  "coding": [
                    {
                      "code": "100000100100",
                      "display": "教育學程-FHIR"
                    }
                  ]
                }
              ],
              
              "comment": "測試學程（schedule）-附加3個課堂(slot)"
            },
        "request":{
            "method":"POST"
        }
    },
    {
        "fullUrl":"urn:uuid:testSlot1_1",
        "resource":{
            "resourceType":"Slot",
            "id":"slot11111111111",
            "text": {
                "status": "generated",
                "div": "<div xmlns=\"http://www.w3.org/1999/xhtml\">\n 學程testSchedule-課堂1-1(slot1_1) \n    </div>"
              },
            "active":true,
            "actor":[ {
                "reference": "urn:uuid:testPractitionerRole",
                "display": "testPractitionerRole"
              }
            ],
              "planningHorizon": {
                "start": "2021-05-24T09:00:00Z",
                "end": "2021-05-24T12:30:00Z"
              },
              "serviceCategory": [
                {
                  "coding": [
                    {
                      "code": "100000",
                      "display": "學程"
                    }
                  ]
                }
              ],
              "serviceType": [
                {
                  "coding": [
                    {
                      "code": "100000100",
                      "display": "教育學程"
                    }
                  ]
                }
              ],
              "specialty": [
                {
                  "coding": [
                    {
                      "code": "100000100100",
                      "display": "教育學程-FHIR"
                    }
                  ]
                }
              ],
              
              "comment": "測試學程（schedule）-附加課堂(slot1_1)"
            },
        "request":{
            "method":"POST"
        }
    },
    {
        "fullUrl":"urn:uuid:testSlot1_2",
        "resource":{
            "resourceType":"Slot",
            "id":"slot11111111112",
            "text": {
                "status": "generated",
                "div": "<div xmlns=\"http://www.w3.org/1999/xhtml\">\n 學程testSchedule-課堂1-2(slot1_2) \n    </div>"
              },
            "active":true,
            "actor":[ {
                "reference": "urn:uuid:testPractitionerRole",
                "display": "testPractitionerRole"
              }
            ],
              "planningHorizon": {
                "start": "2021-05-24T09:00:00Z",
                "end": "2021-05-24T12:30:00Z"
              },
              "serviceCategory": [
                {
                  "coding": [
                    {
                      "code": "100000",
                      "display": "學程"
                    }
                  ]
                }
              ],
              "serviceType": [
                {
                  "coding": [
                    {
                      "code": "100000100",
                      "display": "教育學程"
                    }
                  ]
                }
              ],
              "specialty": [
                {
                  "coding": [
                    {
                      "code": "100000100100",
                      "display": "教育學程-FHIR"
                    }
                  ]
                }
              ],
              
              "comment": "測試學程（schedule）-附加課堂(slot1_2)"
            },
        "request":{
            "method":"POST"
        }
    },
    {
        "fullUrl":"urn:uuid:testSlot1_3",
        "resource":{
            "resourceType":"Slot",
            "id":"slot11111111113",
            "text": {
                "status": "generated",
                "div": "<div xmlns=\"http://www.w3.org/1999/xhtml\">\n 學程testSchedule-課堂1-3(slot1_3) \n    </div>"
              },
            "active":true,
            "actor":[ {
                "reference": "urn:uuid:testPractitionerRole",
                "display": "testPractitionerRole"
              }
            ],
              "planningHorizon": {
                "start": "2021-05-24T09:00:00Z",
                "end": "2021-05-24T12:30:00Z"
              },
              "serviceCategory": [
                {
                  "coding": [
                    {
                      "code": "100000",
                      "display": "學程"
                    }
                  ]
                }
              ],
              "serviceType": [
                {
                  "coding": [
                    {
                      "code": "100000100",
                      "display": "教育學程"
                    }
                  ]
                }
              ],
              "specialty": [
                {
                  "coding": [
                    {
                      "code": "100000100100",
                      "display": "教育學程-FHIR"
                    }
                  ]
                }
              ],
              
              "comment": "測試學程（schedule）-附加課堂(slot1_3)"
            },
        "request":{
            "method":"POST"
        }
    },
    {
        "fullUrl":"urn:uuid:testAppointmentSlot1_1",
        "resource":{
            "resourceType":"Appointment",
            "text": {
                "status": "generated",
                "div": "<div xmlns=\"http://www.w3.org/1999/xhtml\">\n 學程testSchedule->課堂1-1(slot1_1)->選課(Appointmentslot1_1) \n    </div>"
              },
            "status": "booked",
            "participant":[ {
                "reference": "urn:uuid:testPractitionerRole",
                "display": "testPractitionerRole"
              },
              {
                "reference": "urn:uuid:testPatient1",
                "display": "testPatient1"
              }
            ],
              "slot": {
                "reference": "Slot/slot11111111111"
               }
            },
        "request":{
            "method":"POST"
        }
    },
    {
       
        "resource":{
            "resourceType":"Slot",
            "active":false,
            "actor":[ 
                {
                "reference": "urn:uuid:testPractitionerRole",
                "display": "testPractitionerRole"
              },
              {
                "reference": "urn:uuid:testPatient1",
                "display": "testPatient1"
              }
            ]
            },
        "request":{
            "method":"PUT",
            "url":"Slot/slot11111111111"
        }
    },
    {
        "fullUrl":"urn:uuid:testAppointmentSlot1_2",
        "resource":{
            "resourceType":"Appointment",
            "text": {
                "status": "generated",
                "div": "<div xmlns=\"http://www.w3.org/1999/xhtml\">\n 學程testSchedule->課堂1-2(slot1_2)->選課(Appointmentslot1_2) \n    </div>"
              },
            "status": "booked",
            "participant":[ {
                "reference": "urn:uuid:testPractitionerRole",
                "display": "testPractitionerRole"
              },
              {
                "reference": "urn:uuid:testPatient2",
                "display": "testPatient2"
              }
            ],
              "slot": {
                "reference": "Slot/slot11111111112"
               }
            },
        "request":{
            "method":"POST"
        }
    },
    {
         "resource":{
             "resourceType":"Slot",
             "active":false,
             "actor":[ 
                 {
                 "reference": "urn:uuid:testPractitionerRole",
                 "display": "testPractitionerRole"
               },
               {
                 "reference": "urn:uuid:testPatient2",
                 "display": "testPatient2"
               }
             ]
             },
         "request":{
             "method":"PUT",
             "url":"Slot/slot11111111112"
         }
     }
    ]
  
  }