<?xml version="1.0" encoding="UTF-8"?>
<?xml-stylesheet type="text/xsl" href="./DocumentToHTML.xsl"?>
<Bundle xmlns="http://hl7.org/fhir">
    <id value="example-stu3-doc"/> 
    <meta> 
        <lastUpdated value="2013-05-28T22:12:21Z"/> 
    </meta> 
    <identifier> 
        <system value="urn:ietf:rfc:3986"/> 
        <value value="urn:uuid:0c3151bd-1cbf-4d64-b04d-cd9187a4c6e5"/> 
    </identifier> 
    <type value="document"/> 
    <!--      The Composition resource      -->
    <entry> 
        <fullUrl value="urn:uuid:180f219f-97a8-486d-99d9-ed631fe4fc57"/>
        <resource>
            <Composition>
                <meta>
                    <tag>
                        <system value="http://www.alpha.alp/use-case"/>
                        <code value="Adam"/>
                    </tag>
                </meta>
                <text>
                    <status value="generated"/>
                    <div xmlns="http://www.w3.org/1999/xhtml">
                        <p>
                            <h1>Discharge Summary (final)</h1>
                            <em> Generated Narrative with Details</em>
                        </p>
                        <p>
                            <b> date</b> : June 26, 2018 12:30:02 PM
                        </p>
                        <p>
                            <b> author</b> : Dr Harald Hipocrates
                        </p>
                    </div>
                </text>
                <type>
                    <coding>
                        <system value="http://loinc.org"/>
                        <code value="11488-4"/>
                    </coding>
                    <text value="Discharge Summary from Responsible Clinician"/>
                </type>
                <subject>
                    <reference value="urn:uuid:180f219f-97a8-486d-99d9-ed631fe4fc99"/>
                </subject>
                <!--      The Encounter resource for the second encounter -->
                <encounter>
                    <reference value="urn:uuid:04121321-4af5-424c-a0e1-ed3aab1caae2"/>
                </encounter>
                <date value="2018-06-28T12:30:02+01:00"/>
                <author>
                    <reference value="urn:uuid:04121321-4af5-424c-a0e1-ed3aab1c349d"/>
                    <display value="Dr. Harold Hippocrates"/>
                </author>
                <title value="Discharge Summary"/>
                <confidentiality value="N"/>
                <section>
                    <title value="Reason for admission"/>
                    <code>
                        <coding>
                            <system value="http://loinc.org"/>
                            <code value="29299-5"/>
                            <display value="Reason for visit Narrative"/>
                        </coding>
                    </code>
                    <text>
                        <status value="generated"/>
                        <div xmlns="http://www.w3.org/1999/xhtml">
                            <p>
                                <b> Active conditions: Itchy skin rash</b>
                            </p>
                        </div>
                    </text>
                    <entry>
                        <!-- Condition: itchy skin rash -->
                        <reference value="urn:uuid:75d7e874-8f63-4816-9a95-f1265d4722c3"/>
                    </entry>
                </section>
                <!--      Points to the  medications on discharge      -->
                <section>
                    <title value="Medications on Discharge"/>
                    <code>
                        <coding>
                            <system value="http://loinc.org"/>
                            <code value="10183-2"/>
                            <display value="Hospital discharge medications Narrative"/>
                        </coding>
                    </code>
                    <text>
                        <status value="generated"/>
                        <div xmlns="http://www.w3.org/1999/xhtml">
                            <p>
                                <b> Discharge medication: Erythromycin 250 MG Oral Tablet </b>
                            </p>
                        </div>
                    </text>
                    <mode value="snapshot"/>
                    <!--      This is an entry that refers to a MedicationRequest resource in this document. -->
                    <entry>
                        <reference value="urn:uuid:46dfc86c-f40e-46f4-bfdd-ab0c0e8c8802"/>
                    </entry>
                </section>
                <!--      Points to the  allergies      -->
                <section>
                    <title value="Known allergies"/>
                    <code>
                        <coding>
                            <system value="http://loinc.org"/>
                            <code value="48765-2"/>
                            <display value="Allergies and adverse reactions Document"/>
                        </coding>
                    </code>
                    <text>
                        <status value="generated"/>
                        <div xmlns="http://www.w3.org/1999/xhtml">
                            <p>
                                <b> Allergies: Pennicilin </b>
                            </p>
                        </div>
                    </text>
                    <entry>
                        <reference value="urn:uuid:46dfc86c-f40e-46f4-bfdd-ab0c0e8c9901"/>
                    </entry>
                </section>
            </Composition>
        </resource>
    </entry>
    <entry>
        <fullUrl value="urn:uuid:180f219f-97a8-486d-99d9-ed631fe4fc99"/>
        <resource>
            <Patient xmlns="http://hl7.org/fhir">
            <meta>
                <tag>
                    <system value="http://www.alpha.alp/use-case"/>
                    <code value="Adam"/>
                </tag>
            </meta>
            <text>
                <status value="generated"/>
                <div xmlns="http://www.w3.org/1999/xhtml">
                    <p>
                        <h2>Patient: Adam Everyman, M, 1987-02-17</h2>
                        Nat.id 1020304050, AlphaId 622883245
                    </p>
                </div>
            </text>
            <extension url="http://hl7.org/fhir/StructureDefinition/birthPlace">
                <valueAddress>
                    <city value="Portsmouth"/>
                    <country value="UK"/>
                </valueAddress>
            </extension>
            <extension url="http://hl7.org/fhir/StructureDefinition/patient-disability">
                <valueCodeableConcept>
                    <coding>
                        <system value="http://snomed.info/sct"/>
                        <code value="95859009"/>
                        <display value="Amputation of foot"/>
                    </coding>
                </valueCodeableConcept>
            </extension>
            <identifier>
                <system value="http://www.miniaf.alp/citreg"/>
                <value value="1020304050"/>
            </identifier>
            <identifier>
                <system value="http://www.alpha-hospital.alp/patient-id"/>
                <value value="622883245"/>
            </identifier>
            <name>
                <family value="Everyman"/>
                <given value="Adam"/>
                <prefix value="Mr."/>
            </name>
            <name>
                <use value="old"/>
                <family value="Jones"/>
            </name>
            <telecom>
                <system value="phone"/>
                <value value="020 7422 3666"/>
                <use value="home"/>
            </telecom>
            <gender value="male"/>
            <birthDate value="1987-02-16"/>
            <address>
                <line value="62, Anystreet"/>
                <city value="Alphatown"/>
                <postalCode value="59450"/>
            </address>
            <communication>
                <language>
                    <coding>
                        <system value="urn:ietf:bcp:47"/>
                        <!--   IETF language tag   -->
                        <code value="en"/>
                        <display value="English"/>
                    </coding>
                </language>
            </communication>
            <communication>
                <language>
                    <coding>
                        <system value="urn:ietf:bcp:47"/>
                        <!--   IETF language tag   -->
                        <code value="fr"/>
                        <display value="French"/>
                    </coding>
                </language>
                <preferred value="true"/>
            </communication>
        </Patient>
        </resource>
    </entry>
    <entry>
        <fullUrl value="urn:uuid:04121321-4af5-424c-a0e1-ed3aab1caae2"/>
        <resource>
            <Encounter xmlns="http://hl7.org/fhir">
                <meta>
                    <tag>
                        <system value="http://www.alpha.alp/use-case"/>
                        <code value="Adam"/>
                    </tag>
                </meta>
                <text>
                    <status value="generated"/>
                    <div xmlns="http://www.w3.org/1999/xhtml">
                        <p>Encounter on June 16th with Dr. Harold Hippocrates</p>
                    </div>
                </text>
                <identifier>
                    <use value="official"/>
                    <system value="http://www.alpha.alp/encounter"/>
                    <value value="189364"/>
                </identifier>
                <status value="finished"/>
                <class>
                    <system value="http://hl7.org/fhir/v3/ActCode"/>
                    <code value="AMB"/>
                    <display value="ambulatory"/>
                </class>
                <subject>
                    <reference value="urn:uuid:180f219f-97a8-486d-99d9-ed631fe4fc99"/>
                </subject>
                <participant>
                    <individual>
                        <reference value="urn:uuid:04121321-4af5-424c-a0e1-ed3aab1c349d"/>
                        <display value="Dr. Harold Hippocrates"/>
                    </individual>
                </participant>
                <period>
                    <start value="2018-06-16T09:30:00+01:00"/>
                    <end value="2018-06-16T09:40:00+01:00"/>
                </period>
                <location>
                    <location>
                        <reference value="urn:uuid:04121321-4af5-424c-a0e1-ed3aabfafafa"/>
                        <display value="Outpatient Clinic - Alpha Hospital"/>
                    </location>
                    <status value="completed"/>
                    <period>
                        <start value="2018-06-16T09:30:00+00:00"/>
                        <end value="2018-06-16T10:00:00+00:00"/>
                    </period>
                </location>
            </Encounter>
        </resource>
    </entry>
    <entry>
        <fullUrl value="urn:uuid:04121321-4af5-424c-a0e1-ed3aab1c349d"/>
        <resource>
            <Practitioner xmlns="http://hl7.org/fhir">
                <meta>
                    <tag>
                        <system value="http://www.alpha.alp/use-case"/>
                        <code value="Adam"/>
                    </tag>
                </meta>
                <text>
                    <status value="generated"/>
                    <div xmlns="http://www.w3.org/1999/xhtml">
                        <p>Dr. Harold Hippocrates</p>
                    </div>
                </text>
                <identifier>
                    <system value="http://www.alpha-hospital.alp/practitioner-id"/>
                    <value value="9865421"/>
                </identifier>
                <name>
                    <use value="official"/>
                    <family value="Hippocrates"/>
                    <given value="Harold"/>
                    <prefix value="Dr."/>
                </name>
                <telecom>
                    <system value="phone"/>
                    <value value="555-555-1003"/>
                    <use value="work"/>
                </telecom>
                <address>
                    <use value="home"/>
                    <line value="1003 Healthcare Drive"/>
                </address>
                <gender value="male"/>
            </Practitioner>
        </resource>
    </entry>
    <entry>
        <fullUrl value="urn:uuid:75d7e874-8f63-4816-9a95-f1265d4722c3"/>
        <resource>
            <Condition xmlns="http://hl7.org/fhir">
                <meta>
                    <tag>
                        <system value="http://www.alpha.alp/use-case"/>
                        <code value="Adam"/>
                    </tag>
                </meta>
                <text>
                    <status value="generated"/>
                    <div xmlns="http://www.w3.org/1999/xhtml">
                        <p>Condition: Itchy skin rash</p>
                    </div>
                </text>
                <clinicalStatus value="resolved"/>
                <code>
                    <coding>
                        <system value="http://snomed.info/sct"/>
                        <code value="64144002"/>
                        <display value="Itchy skin eruption"/>
                    </coding>
                </code>
                <subject>
                    <reference value="urn:uuid:180f219f-97a8-486d-99d9-ed631fe4fc99"/>
                </subject>
                <context>
                    <reference value="urn:uuid:04121321-4af5-424c-a0e1-ed3aab1caae2"/>
                </context>
                <assertedDate value="2018-06-28"/>
                <asserter>
                    <reference value="urn:uuid:180f219f-97a8-486d-99d9-ed631fe4fc99"/>
                </asserter>
            </Condition>
        </resource>
    </entry>
    <entry>
        <fullUrl value="urn:uuid:46dfc86c-f40e-46f4-bfdd-ab0c0e8c8802"/>
        <resource>
            <MedicationRequest xmlns="http://hl7.org/fhir">
                <meta>
                    <tag>
                        <system value="http://www.alpha.alp/use-case"/>
                        <code value="Adam"/>
                    </tag>
                </meta>
                <text>
                    <status value="generated"/>
                    <div xmlns="http://www.w3.org/1999/xhtml">
                        <p>Prescription: Erythromycin 250 MG Oral Tablet </p>
                    </div>
                </text>
                <status value="completed"/>
                <intent value="order"/>
                <medicationReference>
                    <reference value="urn:uuid:46dfc86c-f40e-46f4-bfdd-ab0c0e8c1112"/>
                    <display value="Erythromycin 250 MG Oral Tablet"/>
                </medicationReference>
                <subject>
                    <reference value="urn:uuid:180f219f-97a8-486d-99d9-ed631fe4fc99"/>
                </subject>
                <context>
                    <reference value="urn:uuid:04121321-4af5-424c-a0e1-ed3aab1caae2"/>
                    <display value="Follow up encounter"/>
                </context>
                <authoredOn value="2018-06-16"/>
                <requester>
                    <agent>
                        <reference value="urn:uuid:04121321-4af5-424c-a0e1-ed3aab1c349d"/>
                        <display value="Dr. Harold Hippocrates"/>
                    </agent>
                </requester>
                <reasonReference>
                    <reference value="urn:uuid:75d7e874-8f63-4816-9a95-f1265d4722c4"/>
                    <display value="Otitis Media"/>
                </reasonReference>
                <dosageInstruction>
                    <text value="250 mg 4 times per day for 10 days"/>
                    <timing>
                        <repeat>
                            <boundsDuration>
                                <value value="10"/>
                                <unit value="day"/>
                                <system value="http://unitsofmeasure.org"/>
                                <code value="d"/>
                            </boundsDuration>
                            <frequency value="4"/>
                            <period value="1"/>
                            <periodUnit value="d"/>
                        </repeat>
                    </timing>
                    <doseQuantity>
                        <value value="250"/>
                        <unit value="mg"/>
                        <system value="http://unitsofmeasure.org"/>
                        <code value="mg"/>
                    </doseQuantity>
                </dosageInstruction>
            </MedicationRequest>
        </resource>
    </entry>
    <entry>
        <fullUrl value="urn:uuid:46dfc86c-f40e-46f4-bfdd-ab0c0e8c9901"/>
        <resource>
            <AllergyIntolerance xmlns="http://hl7.org/fhir">
                <meta>
                    <tag>
                        <system value="http://www.alpha.alp/use-case"/>
                        <code value="Adam"/>
                    </tag>
                </meta>
                <text>
                    <status value="generated"/>
                    <div xmlns="http://www.w3.org/1999/xhtml">
                        <p>Penicillin Allergy</p>
                    </div>
                </text>
                <clinicalStatus value="active"/>
                <verificationStatus value="unconfirmed"/>
                <category value="medication"/>
                <criticality value="high"/>
                <code>
                    <coding>
                        <system value="http://www.nlm.nih.gov/research/umls/rxnorm"/>
                        <code value="70618"/>
                        <display value="Penicillin"/>
                    </coding>
                </code>
                <patient>
                    <reference value="urn:uuid:180f219f-97a8-486d-99d9-ed631fe4fc99"/>
                </patient>
                <assertedDate value="2018-06-16"/>
                <recorder>
                    <reference value="urn:uuid:04121321-4af5-424c-a0e1-ed3aab1c349d"/>
                    <display value="Dr. Harold Hippocrates"/>
                </recorder>
                <reaction>
                    <manifestation>
                        <coding>
                            <system value="http://snomed.info/sct"/>
                            <code value="64144002"/>
                            <display value="Itchy skin eruption"/>
                        </coding>
                    </manifestation>
                </reaction>
            </AllergyIntolerance>
        </resource>
    </entry>
    <entry>
        <fullUrl value="urn:uuid:04121321-4af5-424c-a0e1-ed3aabfafafa"/>
        <resource>
            <Location xmlns="http://hl7.org/fhir">
                <meta>
                    <tag>
                        <system value="http://www.alpha.alp/use-case"/>
                        <code value="Adam"/>
                    </tag>
                </meta>
                <text>
                    <status value="generated"/>
                    <div xmlns="http://www.w3.org/1999/xhtml">Outpatient Clinic</div>
                </text>
                <status value="active"/>
                <name value="Outpatient Clinic"/>
                <mode value="kind"/>
                <managingOrganization>
                    <reference value="urn:uuid:04121321-4af5-424c-a0e1-ed3aab1caaaa"/>
                    <display value="Alpha Hospital"/>
                </managingOrganization>
            </Location>
        </resource>
    </entry>
    <entry>
        <fullUrl value="urn:uuid:46dfc86c-f40e-46f4-bfdd-ab0c0e8c1112"/>
        <resource>
            <Medication xmlns="http://hl7.org/fhir">
                <meta>
                    <tag>
                        <system value="http://www.alpha.alp/use-case"/>
                        <code value="Adam"/>
                    </tag>
                </meta>
                <text>
                    <status value="generated"/>
                    <div xmlns="http://www.w3.org/1999/xhtml">
                        <p>Erythromycin 250 MG Oral Tablet</p>
                    </div>
                </text>
                <code>
                    <coding>
                        <system value="http://www.nlm.nih.gov/research/umls/rxnorm"/>
                        <code value="598006"/>
                        <display value="Erythromycin 250 MG Oral Tablet"/>
                    </coding>
                    <text value="Erythromycin 250 MG Oral Tablet"/>
                </code>
            </Medication>
        </resource>
    </entry>
    <entry>
        <fullUrl value="urn:uuid:75d7e874-8f63-4816-9a95-f1265d4722c4"/>
        <resource>
            <Condition xmlns="http://hl7.org/fhir">
                <meta>
                    <tag>
                        <system value="http://www.alpha.alp/use-case"/>
                        <code value="Adam"/>
                    </tag>
                </meta>
                <text>
                    <status value="generated"/>
                    <div xmlns="http://www.w3.org/1999/xhtml">
                        <p>Condition: Otitis Media</p>
                    </div>
                </text>
                <clinicalStatus value="resolved"/>
                <verificationStatus value="confirmed"/>
                <code>
                    <coding>
                        <system value="http://snomed.info/sct"/>
                        <code value="65363002"/>
                        <display value="Otitis Media"/>
                    </coding>
                </code>
                <subject>
                    <reference value="urn:uuid:180f219f-97a8-486d-99d9-ed631fe4fc99"/>
                </subject>
                <assertedDate value="2018-06-28"/>
                <asserter>
                    <reference value="urn:uuid:04121321-4af5-424c-a0e1-ed3aab1c349d"/>
                    <display value="Dr. Harold Hippocrates"/>
                </asserter>
                <evidence>
                    <detail>
                        <reference value="urn:uuid:a63c9876-fd6d-434c-9f57-b8db55aba702"/>
                        <display value="Inflamed right eardrum"/>
                    </detail>
                </evidence>
            </Condition>
        </resource>
    </entry>
    <entry>
        <fullUrl value="urn:uuid:04121321-4af5-424c-a0e1-ed3aab1caaaa"/>
        <resource>
            <Organization xmlns="http://hl7.org/fhir">
                <meta>
                    <tag>
                        <system value="http://www.alpha.alp/use-case"/>
                        <code value="Adam"/>
                    </tag>
                </meta>
                <text>
                    <status value="generated"/>
                    <div xmlns="http://www.w3.org/1999/xhtml">
                        <p>Alpha Hospital</p>
                    </div>
                </text>
                <identifier>
                    <system value="http://www.minhealth.alp/hospitals"/>
                    <value value="17-0362278"/>
                </identifier>
                <name value="Alpha Hospital"/>
                <address>
                    <line value="101 Any Avenue"/>
                    <city value="Alphatown"/>
                    <postalCode value="59931"/>
                </address>
            </Organization>
        </resource>
    </entry>
    <entry>
        <fullUrl value="urn:uuid:a63c9876-fd6d-434c-9f57-b8db55aba702"/>
        <resource>
            <Observation xmlns="http://hl7.org/fhir">
                <meta>
                    <tag>
                        <system value="http://www.alpha.alp/use-case"/>
                        <code value="Adam"/>
                    </tag>
                </meta>
                <text>
                    <status value="generated"/>
                    <div xmlns="http://www.w3.org/1999/xhtml">
                        <p>Observation: Inflamed right eardrum</p>
                    </div>
                </text>
                <status value="final"/>
                <code>
                    <text value="Ear examination"/>
                </code>
                <subject>
                    <reference value="urn:uuid:180f219f-97a8-486d-99d9-ed631fe4fc99"/>
                </subject>
                <effectiveDateTime value="2018-06-14T15:05:00+01:00"/>
                <performer>
                    <reference value="urn:uuid:04121321-4af5-424c-a0e1-ed3aab1c349d"/>
                    <display value="Dr. Harold Hippocrates"/>
                </performer>
                <valueCodeableConcept>
                    <coding>
                        <system value="http://snomed.info/sct"/>
                        <code value="301470001"/>
                        <display value="Inflamed eardrum"/>
                    </coding>
                </valueCodeableConcept>
                <bodySite>
                    <coding>
                        <system value="http://snomed.info/sct"/>
                        <code value="25577004"/>
                        <display value="Right ear"/>
                    </coding>
                </bodySite>
            </Observation>
        </resource>
    </entry>
</Bundle>    
